Folder: QERaman/examples/mos2-example1/ref

Note: examples/README.md
- Example 1: The Raman is calculated for the MoS2 monolayer, in which we set a dense k-mesh of 48x48x1 in the SCF file.
- Example 2: The Raman is calculated for the MoS2 monolayer, in which we set a coarse k-mesh of 12x12x1 in the SCF file, and a dense k-mesh of 48x48x1 in the NSCF file

Note: Example 2 shows a significant reduction in time (7.5-fold) compared with example 1. The workflow is: SCF (coarse k-mesh) --> PH (only fildvscf = 'dvscf') --> NSCF (dense k-mesh) --> BANDS_MAT (dipol vector for dense k-mesh) --> PH_MAT (el-ph for a dense k-mesh by using previously saved DeltaVscf in fildvscf).

File: raman_spectra1.dat
#Raman spectra
#Laser energy   1.95 eV
#Raman shift (cm-1), Raman Spectra (XX,YY,ZZ,s+s+,s-s-,XY,YX,s+s-,s-s+,nonpol)
   350.0000  83.0077  83.2496  56.484  64.6446  64.6413  14.3257  14.6011  32.8698  33.0284  69.184
   351.2531  87.3048  87.5656  59.2498  67.8103  67.8066  15.4734  15.7707  35.17  35.3277  72.4019
   352.5063  91.9853  92.2664  62.2238  71.2143  71.2101  16.7646  17.0867  37.761  37.9178  75.9087
   353.7594  97.0989  97.4018  65.4273  74.8811  74.8764  18.2244  18.5744  40.693  40.849  79.7373
   355.0125  102.704  103.031  68.8847  78.8385  78.8331  19.8832  20.265  44.0279  44.1831  83.9264
   356.2657  108.87  109.222  72.6235  83.118  83.1119  21.7789  22.197  47.842  47.9965  88.5212
   357.5188  115.681  116.061  76.6749  87.7556  87.7486  23.9589  24.4188  52.2306  52.3846  93.5752
   358.7719  123.237  123.647  81.075  92.7923  92.7842  26.4829  26.9911  57.3141  57.4677  99.1527
   360.0251  131.662  132.105  85.8647  98.2753  98.2659  29.4271  29.9916  63.2459  63.3992  105.33
   361.2782  141.109  141.588  91.0916  104.259  104.248  32.8901  33.5209  70.2243  70.3776  112.203
   362.5313  151.77  152.289  96.8105  110.806  110.793  37.0009  37.7105  78.5088  78.6624  119.884
   363.7845  163.889  164.451  103.085  117.989  117.974  41.9315  42.7355  88.4447  88.599  128.521
   365.0376  177.782  178.393  109.989  125.894  125.876  47.9147  48.8332  100.499  100.654  138.294
   366.2907  193.87  194.535  117.611  134.621  134.599  55.2717  56.3311  115.316  115.473  149.443
   367.5439  212.719  213.446  126.053  144.287  144.261  64.456  65.6913  133.802  133.962  162.281
   368.7970  235.118  235.914  135.436  155.033  155  76.1239  77.5827  157.27  157.435  177.237
   370.0501  262.197  263.072  145.907  167.025  166.985  91.2532  93.0018  187.672  187.842  194.908
   371.3033  295.636  296.602  157.64  180.465  180.414  111.352  113.485  228.008  228.188  216.17
   372.5564  338.041  339.113  170.846  195.596  195.53  138.838  141.498  283.085  283.28  242.352
   373.8095  393.664  394.864  185.782  212.715  212.627  177.787  181.193  360.974  361.192  275.594
   375.0627  469.884  471.242  202.764  232.188  232.067  235.469  239.98  476.031  476.288  319.568
   376.3158  580.499  582.057  222.182  254.473  254.301  325.837  332.08  655.686  656.014  381.099
   377.5689  753.795  755.626  244.528  280.152  279.891  478.187  487.348  957.224  957.689  474.173
   378.8221  1054.74  1056.98  270.42  309.982  309.555  761.321  775.906  1514.32  1515.08  631.095
   380.0752  1653.49  1656.44  300.656  345.007  344.228  1358.98  1385.02  2681.6  2683.09  937.251
   381.3283  3033.66  3038.04  336.277  386.789  385.165  2791.29  2844.77  5466.19  5469.61  1633.1
   382.5815  5853.18  5860.38  378.649  437.237  433.983  5532.55  5638.54  11004.5  11009  2938.33
   383.8346  5890.82  5898.35  429.366  494.848  491.943  4918.3  5012.47  10368.2  10365  2707.8
   385.0877  3195.57  3200.92  490.871  563.383  562.022  2347.54  2392.49  5006.66  5004.47  1587.94
   386.3409  1951.12  1955.7  566.684  649.294  648.642  1178.27  1200.83  2494.39  2493.59  1127.84
   387.5940  1498.27  1502.91  661.511  757.445  757.101  679.596  692.609  1429.57  1429.27  995.962
   388.8471  1365.86  1370.99  782.202  895.375  895.188  435.882  444.228  913.251  913.147  1008.07
   390.1003  1397.58  1403.54  939.017  1074.72  1074.63  301.497  307.269  630.279  630.254  1107.7
   391.3534  1547.69  1554.86  1147.83  1313.6  1313.58  220.314  224.531  460.101  460.109  1285.37
   392.6065  1817.84  1826.7  1434.23  1641.28  1641.32  167.776  170.986  350.34  350.356  1556.15
   393.8596  2244.1  2255.44  1841.48  2107.27  2107.37  131.927  134.45  275.635  275.643  1959.08
   395.1128  2908.19  2923.22  2447.29  2800.47  2800.64  106.429  108.462  222.598  222.583  2571.31
   396.3659  3977.53  3998.4  3401.83  3892.72  3892.99  87.6868  89.3585  183.66  183.602  3545.83
   397.6190  5812.83  5843.63  5023.2  5748.02  5748.46  73.5555  74.9524  154.31  154.174  5209.32
   398.8722  9274.72  9324.18  8066.8  9230.77  9231.5  62.7227  63.9044  131.777  131.491  8339.26
   400.1253  16689.6  16779  14571.9  16674.4  16675.8  54.4329  55.4393  114.416  113.806  15035.7
   401.3784  34575.3  34760.8  30250  34614.7  34617.5  48.4639  49.3163  101.574  100.184  31181.6
   402.6316  66159  66514.4  57929.3  66287.6  66293.1  44.5854  45.2932  92.6807  89.9115  59689.7
   403.8847  53775.4  54064.2  47083  53876.4  53880.8  39.136  39.767  81.7643  79.5353  48515.4
   405.1378  25405  25541.3  22228.2  25435.5  25437.6  33.5307  34.1174  70.9707  69.9796  22912.1
   406.3910  12927.4  12996.7  11298.3  12928.5  12929.6  29.4677  30.0043  62.9243  62.4774  11652.3
   407.6441  7548.08  7588.43  6587.55  7538.05  7538.67  26.3128  26.8009  56.5575  56.3447  6798.65
   408.8972  4886.53  4912.59  4257.74  4872.08  4872.48  23.7176  24.1619  51.2714  51.1742  4397.7
   410.1504  3404.57  3422.67  2961.18  3388.45  3388.72  21.5205  21.926  46.7742  46.741  3061.19
   411.4035  2502.45  2515.71  2172.44  2485.9  2486.1  19.6297  20.0009  42.8931  42.8985  2247.88
   412.6566  1915.02  1925.13  1659.22  1898.63  1898.78  17.9849  18.3259  39.5106  39.541  1718.48
   413.9098  1512.05  1520.01  1307.45  1496.11  1496.22  16.5424  16.8567  36.5401  36.5874  1355.47
   415.1629  1224  1230.41  1056.22  1208.63  1208.72  15.269  15.5596  33.9149  33.9741  1096.09
   416.4160  1011.11  1016.38  870.725  996.368  996.442  14.1385  14.4079  31.5821  31.6498  904.486
   417.6692  849.4  853.808  729.96  835.292  835.354  13.13  13.3804  29.4989  29.573  759.012
   418.9223  723.709  727.447  620.664  710.225  710.277  12.2261  12.4595  27.6304  27.7093  645.999
   420.1754  624.095  627.302  534.133  611.209  611.253  11.4128  11.6309  25.9477  26.0302  556.478
   421.4286  543.816  546.595  464.473  531.498  531.536  10.6783  10.8825  24.4266  24.5119  484.37
   422.6817  478.174  480.603  407.575  466.39  466.423  10.0127  10.2042  23.0468  23.1343  425.44
   423.9348  423.813  425.954  360.508  412.531  412.56  9.40751  9.58755  21.7912  21.8804  376.663
   425.1880  378.289  380.188  321.134  367.476  367.501  8.85567  9.02524  20.6451  20.7356  335.836
   426.4411  339.782  341.477  287.866  329.407  329.43  8.35107  8.51105  19.596  19.6875  301.32
   427.6942  306.919  308.44  259.506  296.954  296.974  7.88844  8.03963  18.6331  18.7253  271.879
   428.9474  278.648  280.019  235.134  269.066  269.084  7.46325  7.60635  17.7471  17.8399  246.564
   430.2005  254.149  255.391  214.037  244.925  244.941  7.07156  7.20721  16.9299  17.0232  224.638
   431.4536  232.779  233.909  195.655  223.89  223.904  6.70993  6.83869  16.1745  16.2681  205.522
   432.7068  214.026  215.057  179.54  205.45  205.464  6.37536  6.49776  15.4747  15.5685  188.755
   433.9599  197.479  198.423  165.336  189.196  189.209  6.06522  6.1817  14.8251  14.919  173.967
   435.2130  182.804  183.671  152.752  174.796  174.807  5.77718  5.88817  14.221  14.3149  160.858
   436.4662  169.727  170.526  141.551  161.979  161.989  5.50918  5.61507  13.6581  13.7519  149.184
   437.7193  158.026  158.763  131.537  150.52  150.529  5.25942  5.36055  13.1327  13.2264  138.741
   438.9724  147.511  148.194  122.549  140.235  140.243  5.02627  5.12295  12.6414  12.735  129.362
   440.2256  138.029  138.662  114.451  130.968  130.976  4.80829  4.90081  12.1814  12.2748  120.908
   441.4787  129.448  130.036  107.129  122.59  122.598  4.60419  4.69281  11.7499  11.8431  113.26
   442.7318  121.656  122.204  100.488  114.991  114.998  4.41281  4.49779  11.3446  11.4376  106.319
   443.9850  114.56  115.071  94.4457  108.076  108.083  4.23313  4.31467  10.9634  11.0561  100.001
   445.2381  108.078  108.556  88.932  101.767  101.773  4.0642  4.14252  10.6044  10.6968  94.2322
   446.4912  102.143  102.589  83.8872  95.9941  95.9998  3.90519  3.98047  10.2658  10.3578  88.9514
   447.7444  96.6925  97.111  79.2597  90.6987  90.7041  3.75533  3.82775  9.94603  10.0378  84.1049
   448.9975  91.6765  92.0691  75.0046  85.8296  85.8347  3.61394  3.68366  9.64373  9.73513  79.6461
   450.0000  87.9456  88.319  71.8424  82.2111  82.2159  3.50649  3.57416  9.41359  9.50471  76.3311

File: raman_spectra2.dat
#Raman spectra
#Laser energy   2.33 eV
#Raman shift (cm-1), Raman Spectra (XX,YY,ZZ,s+s+,s-s-,XY,YX,s+s-,s-s+,nonpol)
   350.0000  120.236  118.573  44.7752  81.4828  81.883  34.2836  34.8937  72.2167  72.4039  84.3049
   351.2531  127.065  125.31  46.9677  85.4732  85.8928  37.0302  37.6891  77.7703  77.9577  88.5885
   352.5063  134.549  132.692  49.3252  89.764  90.2043  40.1202  40.8341  84.0193  84.2073  93.273
   353.7594  142.78  140.81  51.8647  94.3862  94.8488  43.6134  44.3895  91.0842  91.2731  98.4095
   355.0125  151.867  149.772  54.6054  99.3747  99.8612  47.583  48.4297  99.113  99.3029  104.058
   356.2657  161.944  159.709  57.5691  104.769  105.282  52.1196  53.047  108.288  108.48  110.291
   357.5188  173.169  170.779  60.7807  110.615  111.156  57.3365  58.3566  118.839  119.032  117.193
   358.7719  185.742  183.176  64.2686  116.964  117.535  63.3765  64.504  131.052  131.247  124.872
   360.0251  199.906  197.141  68.0655  123.876  124.479  70.422  71.6749  145.295  145.494  133.453
   361.2782  215.97  212.978  72.2089  131.419  132.058  78.7089  80.1092  162.043  162.246  143.099
   362.5313  234.325  231.072  76.7422  139.672  140.35  88.5462  90.1215  181.918  182.125  154.009
   363.7845  255.479  251.923  81.716  148.728  149.447  100.345  102.13  205.745  205.958  166.441
   365.0376  280.102  276.191  87.1892  158.694  159.459  114.663  116.703  234.643  234.863  180.729
   366.2907  309.092  304.76  93.2309  169.695  170.511  132.268  134.621  270.153  270.383  197.317
   367.5439  343.687  338.848  99.9226  181.882  182.752  154.246  156.991  314.448  314.69  216.808
   368.7970  385.633  380.175  107.361  195.431  196.36  182.167  185.408  370.668  370.926  240.044
   370.0501  437.473  431.243  115.661  210.552  211.546  218.372  222.257  443.485  443.763  268.239
   371.3033  503.04  495.824  124.962  227.499  228.564  266.467  271.208  540.084  540.391  303.204
   372.5564  588.355  579.843  135.43  246.58  247.72  332.241  338.153  671.974  672.318  347.768
   373.8095  703.363  693.087  147.269  268.172  269.391  425.443  433.014  858.473  858.872  406.584
   375.0627  865.487  852.699  160.73  292.738  294.037  563.475  573.502  1133.96  1134.43  487.787
   376.3158  1107.56  1090.99  176.122  320.861  322.233  779.723  793.6  1564.09  1564.69  606.743
   377.5689  1497.33  1474.6  193.834  353.285  354.704  1144.29  1164.66  2286.04  2286.84  795.326
   378.8221  2190.99  2157.23  214.356  390.992  392.385  1821.81  1854.24  3619.86  3621.04  1127.79
   380.0752  3598.8  3542.52  238.316  435.365  436.526  3251.98  3309.88  6414.68  6416.6  1801.45
   381.3283  6888.24  6779.12  266.535  488.576  488.911  6679.42  6798.34  13082  13085.7  3373.43
   382.5815  13647.9  13429.9  300.088  553.236  551.786  13239.1  13474.8  26339.4  26347.3  6352.26
   383.8346  13672.9  13454.8  340.296  625.687  625.03  11769.3  11978.7  24807.8  24817.1  5754.3
   385.0877  7078.24  6966.91  389.087  711.035  712.803  5617.59  5717.54  11975.9  11980.6  3077.53
   386.3409  3971.52  3910.81  449.201  818.836  822.062  2819.58  2869.74  5964.22  5966.54  1915.25
   387.5940  2753.36  2712.9  524.378  954.943  959.246  1626.27  1655.2  3416.11  3417.44  1491.68
   388.8471  2275.99  2243.97  620.054  1128.69  1134.06  1043.08  1061.63  2180.53  2181.39  1370.5
   390.1003  2148.22  2119.22  744.365  1354.68  1361.3  721.513  734.338  1503.36  1503.96  1407.87
   391.3534  2238.83  2209.63  909.897  1655.73  1663.94  527.256  536.621  1096.12  1096.55  1562.15
   392.6065  2518.38  2486.42  1136.93  2068.71  2079.05  401.549  408.672  833.475  833.792  1836.62
   393.8596  3017.72  2980.17  1459.76  2656.02  2669.35  315.785  321.375  654.73  654.953  2268.46
   395.1128  3832.97  3785.96  1939.99  3529.71  3547.48  254.798  259.293  527.852  527.984  2940.61
   396.3659  5173.05  5110.22  2696.67  4906.34  4931.1  209.994  213.677  434.732  434.761  4022.59
   397.6190  7494.99  7404.56  3981.95  7244.72  7281.32  176.257  179.312  364.591  364.477  5879.4
   398.8722  11894.1  11751.2  6394.65  11634.3  11693.1  150.481  153.028  310.829  310.473  9381.75
   400.1253  21334.3  21078.6  11551.3  21016.1  21122.4  130.957  133.05  269.6  268.752  16883.2
   401.3784  44122.4  43594.4  23979.5  43627.7  43848.4  117.429  119.023  239.602  237.595  34977.8
   402.6316  84371.1  83362  45921.2  83547.6  83970.3  109.481  110.48  219.595  215.553  66930.4
   403.8847  68581.6  67761.4  37323.2  67904.7  68248.3  95.9183  96.8538  193.008  189.751  54402.2
   405.1378  32416.9  32029  17620.6  32058.4  32220.6  81.308  82.3912  166.084  164.636  25700.4
   406.3910  16509.4  16311.7  8956.32  16294.9  16377.3  71.0591  72.1391  146.362  145.707  13077
   407.6441  9649.68  9534  5222.03  9500.83  9548.88  63.2827  64.3016  130.94  130.625  7634.81
   408.8972  6254.45  6179.39  3375.16  6140.69  6171.74  56.9604  57.905  118.212  118.062  4942.16
   410.1504  4363.07  4310.63  2347.36  4270.74  4292.33  51.6402  52.5114  107.419  107.359  3442.86
   411.4035  3211.07  3172.43  1722.12  3133.19  3149.03  47.0777  47.8806  98.1229  98.1172  2530.18
   412.6566  2460.44  2430.78  1315.28  2393.01  2405.1  43.117  43.8578  90.0324  90.0609  1935.87
   413.9098  1945.15  1921.67  1036.43  1885.67  1895.2  39.6483  40.3332  82.9351  82.9862  1528.18
   415.1629  1576.51  1557.45  837.279  1523.34  1531.03  36.5891  37.2236  76.6685  76.7352  1236.75
   416.4160  1303.85  1288.06  690.234  1255.81  1262.15  33.875  34.4642  71.1044  71.1821  1021.36
   417.6692  1096.55  1083.25  578.648  1052.79  1058.11  31.4547  32.0031  66.1397  66.2252  857.745
   418.9223  935.292  923.931  492.007  895.159  899.678  29.2866  29.7982  61.6899  61.7812  730.575
   420.1754  807.375  797.551  423.414  770.361  774.249  27.3363  27.8146  57.6855  57.7811  629.786
   421.4286  704.194  695.612  368.193  669.894  673.274  25.5753  26.0234  54.0685  54.1673  548.56
   422.6817  619.749  612.184  323.09  587.833  590.799  23.9797  24.4004  50.7901  50.8913  482.142
   423.9348  549.756  543.034  285.779  519.95  522.573  22.5293  22.9249  47.809  47.912  427.138
   425.1880  491.087  485.073  254.567  463.163  465.499  21.2069  21.5796  45.0902  45.1944  381.075
   426.4411  441.419  436.004  228.195  415.182  417.276  19.9978  20.3495  42.6036  42.7087  342.111
   427.6942  398.994  394.091  205.713  374.279  376.166  18.8893  19.2218  40.3233  40.4291  308.859
   428.9474  362.466  358.004  186.393  339.128  340.838  17.8707  18.1855  38.2271  38.3333  280.253
   430.2005  330.786  326.707  169.67  308.702  310.257  16.9324  17.2308  36.2955  36.4019  255.464
   431.4536  303.129  299.385  155.098  282.189  283.611  16.0661  16.3494  34.5117  34.6182  233.841
   432.7068  278.84  275.39  142.324  258.948  260.253  15.2648  15.5341  32.8608  32.9674  214.865
   433.9599  257.391  254.201  131.064  238.462  239.663  14.5219  14.7782  31.3301  31.4365  198.122
   435.2130  238.353  235.395  121.088  220.312  221.422  13.832  14.0763  29.9079  30.0141  183.273
   436.4662  221.378  218.625  112.209  204.157  205.185  13.1902  13.4232  28.5842  28.6902  170.042
   437.7193  206.176  203.608  104.271  189.715  190.67  12.5921  12.8146  27.3502  27.4558  158.203
   438.9724  192.508  190.105  97.1457  176.751  177.641  12.0337  12.2464  26.1977  26.3031  147.565
   440.2256  180.172  177.92  90.7264  165.072  165.903  11.5117  11.7152  25.1198  25.2248  137.971
   441.4787  169.001  166.885  84.9225  154.512  155.29  11.0229  11.2179  24.1101  24.2147  129.29
   442.7318  158.852  156.859  79.658  144.934  145.663  10.5647  10.7516  23.163  23.2671  121.407
   443.9850  149.603  147.723  74.8681  136.219  136.904  10.1344  10.3137  22.2732  22.3769  114.228
   445.2381  141.15  139.373  70.4973  128.267  128.912  9.7299  9.90213  21.4364  21.5396  107.672
   446.4912  133.404  131.722  66.4983  120.991  121.599  9.34914  9.51468  20.6482  20.751  101.668
   447.7444  126.288  124.693  62.83  114.317  114.892  8.99032  9.14954  19.9051  20.0073  96.1559
   448.9975  119.735  118.22  59.4569  108.18  108.724  8.65176  8.80503  19.2035  19.3053  91.083
   450.0000  114.859  113.403  56.9502  103.619  104.14  8.3945  8.54324  18.6702  18.7715  87.3101

File: raman_spectra3.dat
#Raman spectra
#Laser energy   2.54 eV
#Raman shift (cm-1), Raman Spectra (XX,YY,ZZ,s+s+,s-s-,XY,YX,s+s-,s-s+,nonpol)
   350.0000  152.772  148.731  42.0526  81.8056  82.3995  64.2441  65.2836  133.292  133.533  85.041
   351.2531  162.14  157.858  44.1117  85.8125  86.435  69.3909  70.5137  143.706  143.948  89.8086
   352.5063  172.476  167.929  46.3259  90.1211  90.7743  75.1813  76.3979  155.423  155.666  95.0631
   353.7594  183.927  179.086  48.7109  94.7626  95.4486  81.7272  83.0498  168.668  168.912  100.874
   355.0125  196.669  191.501  51.2849  99.7721  100.494  89.1658  90.6089  183.717  183.962  107.323
   356.2657  210.915  205.383  54.0684  105.19  105.949  97.6669  99.2478  200.914  201.161  114.512
   357.5188  226.929  220.987  57.0848  111.06  111.861  107.443  109.182  220.685  220.934  122.564
   358.7719  245.036  238.63  60.3606  117.437  118.282  118.761  120.684  243.57  243.822  131.629
   360.0251  265.645  258.712  63.9266  124.379  125.272  131.963  134.1  270.257  270.513  141.898
   361.2782  289.275  281.738  67.818  131.955  132.901  147.492  149.88  301.635  301.895  153.609
   362.5313  316.594  308.36  72.0757  140.245  141.247  165.926  168.613  338.868  339.133  167.07
   363.7845  348.476  339.431  76.747  149.342  150.406  188.036  191.082  383.503  383.774  182.68
   365.0376  386.088  376.085  81.8874  159.354  160.485  214.866  218.346  437.634  437.912  200.969
   366.2907  431.01  419.865  87.5617  170.408  171.612  247.856  251.872  504.148  504.435  222.654
   367.5439  485.441  472.915  93.8464  182.654  183.937  289.04  293.724  587.115  587.413  248.729
   368.7970  552.513  538.286  100.832  196.271  197.64  341.36  346.893  692.415  692.726  280.605
   370.0501  636.825  620.465  108.628  211.472  212.935  409.203  415.836  828.798  829.123  320.352
   371.3033  745.367  726.264  117.363  228.514  230.077  499.326  507.422  1009.72  1010.07  371.113
   372.5564  889.203  866.473  127.194  247.71  249.379  622.58  632.675  1256.74  1257.1  437.869
   373.8095  1086.72  1059.01  138.313  269.443  271.221  797.229  810.158  1606.03  1606.42  528.911
   375.0627  1370.29  1335.46  150.955  294.192  296.076  1055.88  1073.01  2121.98  2122.39  658.905
   376.3158  1801.22  1755.57  165.411  322.563  324.535  1461.1  1484.81  2927.59  2928  855.79
   377.5689  2506.3  2442.97  182.045  355.349  357.357  2144.25  2179.04  4279.75  4280.11  1177.91
   378.8221  3778.68  3683.49  201.317  393.646  395.55  3413.84  3469.25  6777.99  6778.08  1761.79
   380.0752  6389.2  6228.73  223.817  439.134  440.553  6093.79  6192.71  12012.8  12011.9  2971.22
   381.3283  12533.1  12219.1  250.312  494.815  494.672  12516.4  12719.6  24501.2  24497.4  5834.83
   382.5815  25197.5  24566.8  281.808  564.136  560.69  24808.4  25211.1  49329.2  49329.8  11291.1
   383.8346  25180.3  24549.5  319.573  636.064  633.913  22054.1  22412  46448.6  46477.3  10125.6
   385.0877  12695.1  12376.3  365.413  717.52  719.598  10526.7  10697.4  22421  22437.4  5104.45
   386.3409  6754.2  6583.8  421.88  823.78  828.314  5283.54  5369.24  11165.7  11173  2865.85
   387.5940  4342.46  4232.13  492.489  959.562  965.824  3047.44  3096.85  6394.85  6398.65  1970.27
   388.8471  3291.77  3207.4  582.349  1133.54  1141.46  1954.62  1986.29  4081.42  4083.66  1602.93
   390.1003  2853.17  2779.38  699.102  1360.14  1369.95  1352.04  1373.92  2813.48  2814.94  1485.81
   391.3534  2759.72  2687.72  854.569  1662.17  1674.36  988.031  1003.99  2050.95  2051.97  1523.02
   392.6065  2923.68  2846.85  1067.79  2076.57  2091.96  752.478  764.595  1559.16  1559.9  1690.27
   393.8596  3348.38  3259.89  1371  2665.98  2685.85  591.775  601.256  1224.46  1225.01  2004.89
   395.1128  4116.48  4007.24  1822.03  3542.83  3569.34  477.506  485.091  986.882  987.267  2527.9
   396.3659  5431.21  5286.66  2532.69  4924.49  4961.42  393.569  399.727  812.507  812.742  3394.34
   397.6190  7750.36  7543.68  3739.82  7271.43  7326.04  330.381  335.404  681.151  681.206  4901.07
   398.8722  12179.8  11854.6  6005.82  11677.1  11764.9  282.14  286.175  580.44  580.227  7760.51
   400.1253  21718.4  21138.1  10848.9  21093.3  21252  245.682  248.687  503.143  502.416  13901.4
   401.3784  44775.4  43578.4  22521.5  43787.8  44117.3  220.638  222.179  446.733  444.825  28729.4
   402.6316  85513.7  83227.4  43129  83854.2  84485.2  206.285  205.726  408.842  404.874  54920.9
   403.8847  69516.8  67658.2  35053.8  68154  68666.8  180.659  180.416  359.236  356.048  44643.8
   405.1378  32892  32012.7  16549.2  32176  32418.1  152.795  153.776  309.218  307.844  21106.9
   406.3910  16778.6  16330.1  8411.73  16354.7  16477.8  133.376  134.78  272.468  271.886  10753.4
   407.6441  9826.99  9564.38  4904.5  9535.73  9607.45  118.712  120.195  243.672  243.426  6288.26
   408.8972  6384.01  6213.45  3169.93  6163.26  6209.61  106.82  108.267  219.884  219.8  4077.88
   410.1504  4464.38  4345.13  2204.63  4286.45  4318.67  96.825  98.1972  199.702  199.705  2846.28
   411.4035  3293.96  3205.99  1617.4  3144.72  3168.36  88.26  89.5463  182.315  182.369  2095.96
   412.6566  2530.42  2462.85  1235.31  2401.82  2419.86  80.8282  82.0285  167.181  167.267  1606.92
   413.9098  2005.58  1952.04  973.412  1892.62  1906.84  74.3214  75.4399  153.905  154.011  1271.09
   415.1629  1629.58  1586.08  786.368  1528.95  1540.44  68.5839  69.6261  142.183  142.302  1030.76
   416.4160  1351.06  1315  648.264  1260.44  1269.9  63.4944  64.4665  131.775  131.903  852.936
   417.6692  1138.99  1108.59  543.463  1056.68  1064.61  58.9563  59.8643  122.488  122.623  717.69
   418.9223  973.747  947.76  462.091  898.464  905.207  54.8914  55.7408  114.165  114.304  612.437
   420.1754  842.463  819.98  397.668  773.206  779.008  51.2351  52.031  106.676  106.818  528.912
   421.4286  736.394  716.742  345.805  672.369  677.413  47.9339  48.6809  99.9122  100.056  461.511
   422.6817  649.446  632.113  303.444  590.006  594.431  44.9428  45.6451  93.7819  93.927  406.326
   423.9348  577.26  561.853  268.402  521.874  525.787  42.224  42.8853  88.2082  88.354  360.567
   425.1880  516.656  502.865  239.088  464.877  468.362  39.7452  40.369  83.1254  83.2715  322.195
   426.4411  465.268  452.848  214.319  416.719  419.843  37.4789  38.0681  78.4773  78.6234  289.696
   427.6942  421.305  410.057  193.205  375.665  378.48  35.4013  35.9587  74.2154  74.3613  261.925
   428.9474  383.394  373.156  175.06  340.385  342.935  33.492  34.0201  70.298  70.4436  238.005
   430.2005  350.464  341.104  159.353  309.846  312.167  31.7333  32.2342  66.6888  66.8339  217.25
   431.4536  321.674  313.081  145.667  283.236  285.357  30.1097  30.5855  63.3562  63.5008  199.125
   432.7068  296.352  288.433  133.67  259.909  261.855  28.6077  29.0603  60.2726  60.4165  183.2
   433.9599  273.958  266.636  123.094  239.347  241.139  27.2155  27.6463  57.4137  57.5568  169.132
   435.2130  254.055  247.263  113.725  221.13  222.785  25.9225  26.3332  54.758  54.9004  156.641
   436.4662  236.284  229.965  105.386  204.916  206.449  24.7196  25.1115  52.2868  52.4284  145.498
   437.7193  220.347  214.453  97.9306  190.42  191.844  23.5985  23.9729  49.9832  50.124  135.517
   438.9724  205.999  200.487  91.2387  177.408  178.735  22.552  22.9101  47.8324  47.9724  126.539
   440.2256  193.034  187.867  85.2097  165.686  166.925  21.5737  21.9164  45.8211  45.9603  118.433
   441.4787  181.279  176.424  79.7588  155.087  156.247  20.6577  20.986  43.9375  44.0758  111.091
   442.7318  170.585  166.016  74.8144  145.473  146.561  19.7988  20.1137  42.1709  42.3084  104.418
   443.9850  160.829  156.519  70.3157  136.726  137.748  18.9924  19.2946  40.5118  40.6484  98.3345
   445.2381  151.902  147.829  66.2107  128.744  129.707  18.2344  18.5246  38.9516  39.0874  92.7734
   446.4912  143.712  139.858  62.4548  121.441  122.349  17.5208  17.7998  37.4826  37.6176  87.6759
   447.7444  136.181  132.526  59.0096  114.742  115.6  16.8483  17.1167  36.0978  36.2319  82.9918
   448.9975  129.237  125.768  55.8416  108.583  109.394  16.2138  16.4722  34.7908  34.924  78.6771
   450.0000  124.066  120.734  53.4873  104.005  104.782  15.7317  15.9824  33.7973  33.9299  75.4658