Folder: QERaman/examples/mos2-example1/ref (part 2)

File: raman_spectra4.dat
#Raman spectra
#Laser energy   2.78 eV
#Raman shift (cm-1), Raman Spectra (XX,YY,ZZ,s+s+,s-s-,XY,YX,s+s-,s-s+,nonpol)
   350.0000  191.793  184.37  39.4783  60.7865  61.1766  120.366  122.126  248.212  248.48  77.6599
   351.2531  204.823  196.927  41.4114  63.766  64.1739  130.009  131.911  267.734  267.995  82.9009
   352.5063  219.329  210.908  43.49  66.9702  67.3971  140.857  142.919  289.696  289.95  88.7565
   353.7594  235.55  226.544  45.729  70.4222  70.8694  153.122  155.363  314.521  314.766  95.3265
   355.0125  253.776  244.116  48.1455  74.1483  74.6171  167.059  169.505  342.726  342.963  102.733
   356.2657  274.364  263.968  50.7586  78.1783  78.6702  182.986  185.666  374.955  375.181  111.124
   357.5188  297.756  286.529  53.5902  82.5463  83.0629  201.302  204.251  412.007  412.222  120.688
   358.7719  324.505  312.332  56.6655  87.2913  87.8341  222.508  225.769  454.893  455.095  131.656
   360.0251  355.311  342.054  60.0132  92.4579  93.0286  247.244  250.868  504.903  505.088  144.325
   361.2782  391.071  376.564  63.6664  98.0978  98.6983  276.339  280.391  563.701  563.868  159.074
   362.5313  432.952  416.988  67.6634  104.271  104.903  310.877  315.436  633.468  633.612  176.399
   363.7845  482.493  464.817  72.0488  111.046  111.712  352.303  357.471  717.104  717.221  196.955
   365.0376  541.761  522.049  76.8745  118.506  119.207  402.571  408.479  818.532  818.614  221.626
   366.2907  613.587  591.422  82.2014  126.747  127.483  464.382  471.199  943.161  943.2  251.624
   367.5439  701.933  676.772  88.1013  135.881  136.654  541.545  549.498  1098.61  1098.6  288.653
   368.7970  812.488  783.602  94.6596  146.044  146.855  639.574  648.97  1295.91  1295.82  335.166
   370.0501  953.661  920.051  101.978  157.4  158.245  766.684  777.952  1551.45  1551.25  394.806
   371.3033  1138.31  1098.56  110.178  170.147  171.021  935.542  949.296  1890.44  1890.1  473.168
   372.5564  1386.89  1338.94  119.407  184.528  185.42  1166.47  1183.63  2353.27  2352.72  579.204
   373.8095  1733.56  1674.23  129.845  200.848  201.736  1493.7  1515.67  3007.73  3006.85  727.946
   375.0627  2238.7  2162.9  141.713  219.498  220.341  1978.32  2007.43  3974.46  3973.05  946.172
   376.3158  3016.93  2915.9  155.284  240.995  241.711  2737.55  2777.86  5483.94  5481.59  1285.17
   377.5689  4305.96  4163.35  170.898  266.07  266.494  4017.52  4076.69  8017.55  8013.4  1852.5
   378.8221  6656.12  6438.01  188.989  295.868  295.628  6396.26  6490.5  12698.7  12690.7  2900.57
   380.0752  11516  11142.3  210.108  332.522  330.696  11417.5  11585.8  22508  22490.4  5103.04
   381.3283  23013  22271.9  234.973  380.771  374.862  23451  23796.7  45909.8  45867.1  10366.5
   382.5815  46762.8  45263.2  264.523  445.665  431.673  46481.7  47166.9  92427  92370.3  20429.8
   383.8346  46645.3  45147.6  299.978  496.601  484.684  41321.4  41930.2  87009.4  87053.9  18199.7
   385.0877  23059.9  22313.5  343.029  544.291  540.792  19723.1  20013.6  41997.3  42027.8  8803.07
   386.3409  11759.8  11372.4  396.047  617.281  618.004  9899.39  10045.1  20914.7  20926.8  4548.39
   387.5940  7065.92  6826.34  462.337  715.557  718.562  5709.75  5793.74  11978.1  11983.5  2759.1
   388.8471  4888.95  4716.28  546.699  843.466  848.158  3662.18  3715.97  7644.47  7647.29  1914.68
   390.1003  3803.17  3661.82  656.306  1010.97  1017.29  2533.16  2570.27  5269.25  5270.9  1485.56
   391.3534  3280.03  3150.96  802.257  1234.73  1242.91  1851.12  1878.13  3840.77  3841.84  1272.45
   392.6065  3112.02  2982.24  1002.43  1542.03  1552.59  1409.76  1430.2  2919.42  2920.17  1195.69
   393.8596  3233.39  3091.1  1287.07  1979.3  1993.12  1108.63  1124.53  2292.33  2292.9  1228.97
   395.1128  3670.35  3501.28  1710.5  2629.96  2648.54  894.48  907.086  1847.12  1847.58  1380.47
   396.3659  4555.36  4337.82  2377.66  3655.32  3681.32  737.137  747.198  1520.25  1520.63  1697.74
   397.6190  6220.3  5915.27  3510.9  5397.11  5435.68  618.618  626.55  1273.81  1274.14  2301.55
   398.8722  9488.52  9014.69  5638.19  8666.88  8728.99  527.993  533.87  1084.46  1084.75  3492.54
   400.1253  16608.6  15769.7  10184.8  15655.4  15767.8  459.173  462.499  938.198  938.45  6092.53
   401.3784  33895.7  32172.9  21142.8  32498.9  32732.4  411.017  409.93  829.01  829.204  12410.2
   402.6316  64475.8  61190.5  40488.9  62235.6  62682.9  381.949  373.897  751.821  751.932  23588.4
   403.8847  52430  49759  32908  50583.1  50946.6  334.787  328.602  661.328  661.458  19182.6
   405.1378  24888.5  23623.1  15536.1  23880.8  24052.3  284.535  283.479  573.205  573.391  9111.79
   406.3910  12762.8  12116  7896.82  12138.4  12225.5  249.011  250.012  506.816  507.024  4677.27
   407.6441  7523.98  7144.19  4604.28  7077.41  7128.2  221.906  223.621  453.934  454.149  2760.85
   408.8972  4923.75  4676.32  2975.89  4574.4  4607.21  199.807  201.746  409.897  410.115  1809.24
   410.1504  3469.95  3296.39  2069.68  3181.44  3204.25  181.182  183.153  372.384  372.602  1276.9
   411.4035  2580.6  2452.13  1518.4  2334.06  2350.78  165.196  167.118  339.995  340.212  951.024
   412.6566  1998.2  1899.2  1159.69  1782.68  1795.44  151.312  153.15  311.765  311.98  737.459
   413.9098  1596.21  1517.49  913.826  1404.76  1414.8  139.149  140.891  286.978  287.192  589.92
   415.1629  1306.93  1242.76  738.232  1134.84  1142.95  128.418  130.061  265.079  265.292  483.654
   416.4160  1091.64  1038.27  608.581  935.55  942.23  118.897  120.443  245.628  245.84  404.493
   417.6692  926.915  881.792  510.196  784.315  789.911  110.405  111.86  228.268  228.479  343.866
   418.9223  797.94  759.249  433.804  666.888  671.642  102.798  104.166  212.707  212.916  296.348
   420.1754  694.957  661.387  373.325  573.919  578.008  95.954  97.2419  198.702  198.91  258.368
   421.4286  611.339  581.915  324.637  499.076  502.629  89.7742  90.9875  186.052  186.259  227.498
   422.6817  542.454  516.434  284.869  437.944  441.06  84.1745  85.3187  174.586  174.792  202.042
   423.9348  484.984  461.795  251.972  387.374  390.128  79.0841  80.1644  164.161  164.365  180.783
   425.1880  436.5  415.693  224.452  345.069  347.521  74.4429  75.4641  154.653  154.856  162.83
   426.4411  395.191  376.409  201.2  309.325  311.521  70.1992  71.1657  145.958  146.161  147.519
   427.6942  359.686  342.638  181.378  278.853  280.832  66.3088  67.2246  137.986  138.187  134.347
   428.9474  328.928  313.378  164.343  252.666  254.458  62.7334  63.6023  130.658  130.859  122.926
   430.2005  302.091  287.845  149.598  229.999  231.629  59.4399  60.2653  123.907  124.106  112.951
   431.4536  278.525  265.421  136.75  210.247  211.736  56.3994  57.1842  117.674  117.872  104.185
   432.7068  257.709  245.611  125.487  192.933  194.299  53.5864  54.3336  111.906  112.103  96.4348
   433.9599  239.224  228.018  115.559  177.671  178.928  50.9789  51.6911  106.559  106.755  89.5469
   435.2130  222.728  212.315  106.764  164.149  165.31  48.5573  49.2368  101.592  101.787  83.3954
   436.4662  207.941  198.238  98.9348  152.113  153.188  46.3044  46.9532  96.9705  97.1644  77.8766
   437.7193  194.63  185.564  91.9359  141.353  142.352  44.2047  44.825  92.6626  92.8555  72.9051
   438.9724  182.601  174.11  85.6537  131.695  132.625  42.2447  42.8382  88.6407  88.8325  68.4094
   440.2256  171.692  163.721  79.9937  122.994  123.862  40.4123  40.9807  84.8799  85.0707  64.3294
   441.4787  161.766  154.267  74.8765  115.127  115.939  38.6966  39.2415  81.358  81.5479  60.6144
   442.7318  152.706  145.637  70.2347  107.991  108.752  37.0879  37.6106  78.0552  78.2441  57.2214
   443.9850  144.412  137.737  66.0114  101.498  102.213  35.5775  36.0794  74.9537  75.1415  54.1136
   445.2381  136.799  130.484  62.1577  95.5728  96.2459  34.1576  34.6398  72.0372  72.2241  51.2592
   446.4912  129.793  123.809  58.6317  90.1519  90.7866  32.821  33.2847  69.2915  69.4774  48.6309
   447.7444  123.33  117.65  55.3974  85.1793  85.7787  31.5614  32.0076  66.7032  66.8882  46.2052
   448.9975  117.355  111.956  52.4233  80.6069  81.1739  30.3729  30.8026  64.2607  64.4447  43.9615
   450.0000  112.892  107.703  50.2132  77.2089  77.7517  29.4698  29.887  62.4043  62.5875  42.2853