Folder: QERaman/examples/mos2-example2/ref (part 2)

File: raman_spectra4.dat
#Raman spectra
#Laser energy   2.78 eV
#Raman shift (cm-1), Raman Spectra (XX,YY,ZZ,s+s+,s-s-,XY,YX,s+s-,s-s+,nonpol)
   350.0000  204.547  196.968  39.6439  60.2808  60.6864  124.571  126.227  265.226  266.119  79.2388
   351.2531  217.551  209.524  41.5841  63.2334  63.6576  134.065  135.861  284.612  285.499  84.4144
   352.5063  232.046  223.522  43.6701  66.4084  66.8525  144.747  146.701  306.438  307.318  90.198
   353.7594  248.273  239.197  45.9172  69.8287  70.2941  156.824  158.955  331.126  332.001  96.688
   355.0125  266.528  256.833  48.3422  73.5205  74.0084  170.547  172.88  359.195  360.065  104.004
   356.2657  287.173  276.783  50.9644  77.5131  78.0252  186.227  188.792  391.286  392.151  112.295
   357.5188  310.658  299.482  53.8058  81.8402  82.3782  204.255  207.085  428.201  429.061  121.742
   358.7719  337.544  325.475  56.8915  86.5403  87.1059  225.122  228.258  470.949  471.805  132.575
   360.0251  368.547  355.455  60.2504  91.6576  92.2527  249.452  252.947  520.82  521.672  145.085
   361.2782  404.582  390.309  63.9156  97.2432  97.8697  278.056  281.971  579.478  580.327  159.646
   362.5313  446.84  431.193  67.9256  103.356  104.016  311.99  316.404  649.104  649.952  176.742
   363.7845  496.897  479.636  72.3249  110.065  110.76  352.662  357.674  732.598  733.446  197.017
   365.0376  556.874  537.693  77.1656  117.45  118.183  401.974  407.71  833.883  834.733  221.334
   366.2907  629.678  608.187  82.5088  125.607  126.379  462.545  469.172  958.37  959.225  250.877
   367.5439  719.39  695.076  88.4265  134.646  135.459  538.068  545.805  1113.69  1114.55  287.307
   368.7970  831.886  804.063  95.004  144.703  145.556  633.875  643.019  1310.85  1311.73  333.012
   370.0501  975.872  943.597  102.343  155.936  156.828  757.887  768.855  1566.27  1567.18  391.525
   371.3033  1164.71  1126.65  110.566  168.54  169.468  922.283  935.667  1905.17  1906.12  468.26
   372.5564  1419.75  1373.94  119.821  182.755  183.708  1146.53  1163.22  2367.98  2368.99  571.844
   373.8095  1776.79  1720.23  130.288  198.878  199.837  1463.29  1484.62  3022.54  3023.68  716.705
   375.0627  2299.54  2227.35  142.188  217.286  218.214  1930.51  1958.72  3989.63  3990.97  928.409
   376.3158  3109.76  3013.54  155.796  238.479  239.303  2658.69  2697.61  5500.05  5501.78  1255.6
   377.5689  4462.35  4326.26  171.457  263.148  263.716  3877.93  3934.79  8035.97  8038.5  1799.45
   378.8221  6954.01  6744.86  189.609  292.354  292.328  6123.19  6213.08  12723.1  12727.4  2794.97
   380.0752  12173.7  11812.1  210.823  328.005  326.55  10808.3  10967.1  22548.8  22557.9  4862.95
   381.3283  24625.2  23901  235.87  374.235  369.087  21958.5  22281.3  46000.5  46022.2  9770.29
   382.5815  48775  47348.1  265.756  436.108  423.264  44638.6  45295.2  92586.4  92611.1  19740.2
   383.8346  44277.8  42980.5  301.219  488.445  476.638  43249.5  43885.8  86732.5  86696  19150.3
   385.0877  21515.8  20878.1  343.999  537.322  533.857  20965  21273.3  41791.7  41769.2  9394.91
   386.3409  11129.7  10791.7  396.891  610.063  610.905  10404.1  10556.9  20835.2  20826.2  4790.08
   387.5940  6777.62  6563.56  463.113  707.405  710.566  5940.37  6027.49  11947.4  11943.6  2868.44
   388.8471  4737.22  4579.32  547.396  833.82  838.695  3783.35  3838.68  7633.89  7632.15  1969.26
   390.1003  3712.94  3580.77  656.867  999.176  1005.71  2604.38  2642.32  5268.14  5267.38  1513.46
   391.3534  3219.64  3096.43  802.556  1219.86  1228.29  1896.86  1924.33  3844.69  3844.43  1284.94
   392.6065  3065.77  2939.67  1002.23  1522.68  1533.54  1441.32  1462  2926.26  2926.28  1197.37
   393.8596  3191.67  3051.48  1285.9  1953.15  1967.33  1131.75  1147.77  2301  2301.19  1221.14
   395.1128  3625.12  3456.82  1707.38  2592.91  2611.96  912.338  924.955  1857.03  1857.33  1362.03
   396.3659  4496.52  4278.5  2370.48  3599.55  3626.18  751.607  761.594  1531.08  1531.42  1664.65
   397.6190  6130.06  5823.2  3494.58  5306.14  5345.55  630.928  638.688  1285.42  1285.77  2244.28
   398.8722  9326.75  8849.55  5599.09  8501.28  8564.6  539.088  544.654  1096.92  1097.23  3388.31
   400.1253  16267.5  15423.7  10082.3  15307.9  15422.1  470.086  472.841  951.925  952.093  5881.03
   401.3784  33098  31368  20873.6  31691.9  31928.5  423.57  421.316  845.33  845.112  11933.6
   402.6316  63563.6  60230.9  40367.9  61289.4  61747.1  398.883  388.454  773.134  772.2  22893.5
   403.8847  52899.3  50126.1  33582.1  50986.7  51367.5  350.227  341.801  681.995  681.325  19053.3
   405.1378  25172.5  23856.1  15892.1  24128.6  24308.8  294.735  292.583  589.303  589.303  9073.58
   406.3910  12868.2  12197.9  8050.77  12223.4  12314.6  256.671  257.103  520.827  521.127  4644.01
   407.6441  7567.69  7175.41  4680.77  7106.8  7159.82  228.351  229.717  467.059  467.488  2735.04
   408.8972  4945.12  4690.19  3019.24  4584.15  4618.32  205.563  207.261  422.585  423.079  1789.97
   410.1504  3482.41  3303.93  2096.79  3183.62  3207.33  186.494  188.281  384.82  385.35  1262.46
   411.4035  2589.26  2457.34  1536.64  2333.15  2350.52  170.192  171.965  352.266  352.818  940.064
   412.6566  2005.19  1903.64  1172.66  1780.52  1793.77  156.071  157.782  323.916  324.481  729.018
   413.9098  1602.48  1521.81  923.453  1402.15  1412.57  143.72  145.35  299.032  299.606  583.339
   415.1629  1312.94  1247.22  745.62  1132.14  1140.55  132.837  134.379  277.051  277.63  478.474
   416.4160  1097.6  1042.97  614.41  932.924  939.85  123.189  124.642  257.526  258.109  400.388
   417.6692  932.939  886.758  514.898  781.833  787.633  114.589  115.957  240.096  240.681  340.601
   418.9223  804.065  764.471  437.67  664.575  669.502  106.889  108.174  224.468  225.054  293.75
   420.1754  701.2  666.845  376.554  571.78  576.016  99.9633  101.172  210.399  210.985  256.307
   421.4286  617.701  587.583  327.371  497.103  500.784  93.7112  94.8486  197.685  198.271  225.875
   422.6817  548.928  522.287  287.212  436.127  439.353  88.0468  89.1176  186.157  186.742  200.779
   423.9348  491.559  467.808  254  385.699  388.551  82.8979  83.9069  175.67  176.253  179.82
   425.1880  443.166  421.844  226.224  343.524  346.062  78.2034  79.1551  166.101  166.683  162.119
   426.4411  401.938  382.678  202.76  307.896  310.17  73.9108  74.8094  157.345  157.925  147.022
   427.6942  366.503  349.009  182.761  277.53  279.579  69.9752  70.8245  149.312  149.891  134.032
   428.9474  335.803  319.835  165.578  251.44  253.294  66.3578  67.1615  141.923  142.5  122.766
   430.2005  309.017  294.375  150.707  228.858  230.546  63.025  63.7862  135.112  135.686  112.926
   431.4536  285.492  272.011  137.751  209.185  210.727  59.9476  60.6693  128.818  129.39  104.276
   432.7068  264.711  252.252  126.394  191.942  193.355  57.0998  57.7848  122.991  123.56  96.628
   433.9599  246.254  234.7  116.386  176.744  178.045  54.4593  55.11  117.584  118.151  89.8291
   435.2130  229.779  219.032  107.52  163.281  164.482  52.0063  52.625  112.557  113.122  83.7557
   436.4662  215.008  204.981  99.6284  151.298  152.411  49.7232  50.3122  107.876  108.439  78.3059
   437.7193  201.708  192.328  92.5746  140.587  141.621  47.5948  48.1559  103.51  104.069  73.3953
   438.9724  189.687  180.889  86.2438  130.974  131.936  45.6072  46.1421  99.429  99.9859  68.9535
   440.2256  178.781  170.511  80.5405  122.314  123.212  43.7481  44.2586  95.6098  96.164  64.9215
   441.4787  168.855  161.064  75.3844  114.484  115.324  42.0067  42.4942  92.0298  92.5814  61.2493
   442.7318  159.792  152.436  70.7078  107.383  108.17  40.3731  40.839  88.6692  89.2181  57.8943
   443.9850  151.492  144.535  66.4531  100.922  101.662  38.8385  39.2841  85.5101  86.0563  54.8205
   445.2381  143.871  137.279  62.571  95.0266  95.7231  37.3951  37.8216  82.5365  83.08  51.9965
   446.4912  136.854  130.597  59.0192  89.6331  90.2898  36.0356  36.4441  79.7339  80.2747  49.3954
   447.7444  130.379  124.431  55.7614  84.6859  85.3061  34.7537  35.1452  77.0892  77.6272  46.994
   448.9975  124.389  118.726  52.766  80.1372  80.7238  33.5435  33.9189  74.5905  75.1258  44.7719
   450.0000  119.914  114.463  50.54  76.7568  77.3186  32.6233  32.9865  72.6895  73.2226  43.1113