Folder: QERaman/examples/mos2-example2/ref

Note: examples/README.md
- Example 1: The Raman is calculated for the MoS2 monolayer, in which we set a dense k-mesh of 48x48x1 in the SCF file.
- Example 2: The Raman is calculated for the MoS2 monolayer, in which we set a coarse k-mesh of 12x12x1 in the SCF file, and a dense k-mesh of 48x48x1 in the NSCF file

Note: Example 2 shows a significant reduction in time (7.5-fold) compared with example 1. The workflow is: SCF (coarse k-mesh) --> PH (only fildvscf = 'dvscf') --> NSCF (dense k-mesh) --> BANDS_MAT (dipol vector for dense k-mesh) --> PH_MAT (el-ph for a dense k-mesh by using previously saved DeltaVscf in fildvscf).

File: raman_spectra1.dat
#Raman spectra
#Laser energy   1.95 eV
#Raman shift (cm-1), Raman Spectra (XX,YY,ZZ,s+s+,s-s-,XY,YX,s+s-,s-s+,nonpol)
   350.0000  94.7491  94.2717  56.8019  63.4113  63.4113  19.4285  19.6432  50.4035  50.8665  70.5682
   351.2531  98.8995  98.4428  59.5818  66.515  66.5145  20.5229  20.7587  52.5672  53.0272  73.7247
   352.5063  103.431  102.996  62.5708  69.8522  69.8512  21.7589  22.0185  55.022  55.479  77.1662
   353.7594  108.392  107.982  65.7905  73.447  73.4453  23.1609  23.4472  57.8179  58.2721  80.9251
   355.0125  113.842  113.459  69.2651  77.3265  77.3241  24.7589  25.0755  61.0166  61.468  85.0393
   356.2657  119.85  119.496  73.0223  81.5217  81.5184  26.5898  26.9411  64.694  65.1427  89.5533
   357.5188  126.499  126.178  77.0936  86.0677  86.0634  28.7001  29.0911  68.9452  69.3914  94.5199
   358.7719  133.89  133.605  81.515  91.0048  90.9992  31.1479  31.5849  73.8901  74.3338  100.002
   360.0251  142.146  141.903  86.3277  96.3791  96.3719  34.0078  34.4982  79.6817  80.1229  106.075
   361.2782  151.422  151.226  91.5795  102.244  102.235  37.3757  37.9289  86.5174  86.9565  112.831
   362.5313  161.909  161.767  97.3253  108.661  108.649  41.3773  42.005  94.6562  95.0932  120.383
   363.7845  173.855  173.776  103.629  115.701  115.687  46.1799  46.8967  104.442  104.877  128.873
   365.0376  187.577  187.573  110.565  123.448  123.43  52.0094  52.8342  116.341  116.774  138.481
   366.2907  203.502  203.586  118.222  132  131.978  59.1772  60.1345  130.994  131.426  149.437
   367.5439  222.203  222.396  126.701  141.473  141.445  68.1221  69.2445  149.308  149.739  162.049
   368.7970  244.485  244.812  136.126  152.004  151.968  79.4773  80.8092  172.59  173.02  176.731
   370.0501  271.501  271.998  146.643  163.757  163.711  94.1845  95.7874  202.787  203.217  194.066
   371.3033  304.976  305.694  158.427  176.928  176.869  113.691  115.653  242.893  243.324  214.899
   372.5564  347.598  348.612  171.69  191.758  191.679  140.31  142.761  297.706  298.138  240.51
   373.8095  403.777  405.202  186.691  208.538  208.431  177.92  181.064  375.281  375.714  272.949
   375.0627  481.219  483.244  203.747  227.63  227.481  233.411  237.575  489.951  490.386  315.717
   376.3158  594.45  597.399  223.253  249.489  249.274  319.913  325.665  669.114  669.55  375.267
   377.5689  773.541  778.026  245.706  274.697  274.368  464.765  473.179  970.008  970.437  464.715
   378.8221  1088.37  1095.68  271.743  304.029  303.489  731.537  744.85  1526.26  1526.66  614.026
   380.0752  1724.19  1737.39  302.197  338.591  337.604  1288.23  1311.77  2692.55  2692.84  901.545
   381.3283  3204.82  3232.09  338.226  380.164  378.108  2613.15  2661.02  5476.44  5476.37  1549.08
   382.5815  6050.15  6104.66  381.33  431.026  426.805  5308.16  5405.52  11005  11005.6  2835.78
   383.8346  5578.36  5627.82  432.116  487.488  483.452  5143.08  5237.45  10305.7  10310  2810.89
   385.0877  2996.86  3020.67  493.132  552.892  550.988  2495.03  2540.75  4973.41  4976.02  1650.96
   386.3409  1866.16  1878.29  568.781  636.052  635.16  1240.07  1262.74  2487.34  2488.71  1148.44
   387.5940  1454.73  1461.98  663.606  741.345  740.893  709.627  722.548  1432.89  1433.76  999.51
   388.8471  1337.2  1342.19  784.338  875.829  875.602  453.285  461.497  921.042  921.696  1003.2
   390.1003  1373.28  1377.17  941.168  1050.72  1050.63  313.164  318.801  640.265  640.808  1096.98
   391.3534  1522.3  1525.7  1149.9  1283.59  1283.6  229.063  233.156  471.279  471.756  1269.04
   392.6065  1787.18  1790.5  1435.97  1602.81  1602.92  174.903  178  362.211  362.645  1533.06
   393.8596  2203.51  2207.1  1842.4  2056.38  2056.58  138.086  140.508  287.927  288.328  1926.69
   395.1128  2850.74  2855.01  2446.29  2730.32  2730.65  111.979  113.921  235.152  235.525  2524.76
   396.3659  3891.04  3896.57  3396.35  3790.64  3791.14  92.8397  94.4282  196.38  196.722  3475.82
   397.6190  5672.75  5680.62  5006.91  5588.11  5588.89  78.4475  79.7691  167.136  167.438  5096.42
   398.8722  9024.58  9036.97  8022.19  8953.35  8954.64  67.4572  68.5716  144.672  144.912  8137.87
   400.1253  16180.2  16202.4  14445.6  16122.3  16124.7  59.1197  60.0688  127.367  127.485  14624
   401.3784  33418.6  33464.4  29907  33378.2  33383.1  53.2914  54.1032  114.607  114.441  30243.1
   402.6316  64566.6  64655.2  57837.8  64550.7  64560.3  49.8328  50.526  105.914  105.241  58462
   403.8847  53717.2  53790.9  48115.2  53699.7  53707.8  44.2042  44.814  95.0224  94.5201  48636
   405.1378  25442.6  25477.3  22769.7  25412.4  25416.2  38.0448  38.5929  83.9683  83.9166  23024.6
   406.3910  12907.8  12925.3  11534.9  12873.7  12875.6  33.7026  34.194  75.7699  75.9161  11671.2
   407.6441  7519.19  7529.23  6706.45  7484.86  7485.96  30.403  30.844  69.3092  69.5385  6791.2
   408.8972  4861.31  4867.67  4325.87  4827.97  4828.68  27.7169  28.114  63.9488  64.2176  4384.65
   410.1504  3384.9  3389.21  3004.21  3352.92  3353.41  25.4538  25.8126  59.3841  59.6734  3048.22
   411.4035  2487.76  2490.83  2201.65  2457.2  2457.56  23.5104  23.8358  55.4377  55.7385  2236.41
   412.6566  1904.36  1906.61  1680.15  1875.18  1875.44  21.8212  22.1172  51.9905  52.2979  1708.7
   413.9098  1504.57  1506.26  1323.09  1476.67  1476.88  20.3397  20.6098  48.9552  49.2664  1347.24
   415.1629  1219.01  1220.31  1068.3  1192.31  1192.48  19.0309  19.2781  46.265  46.5781  1089.18
   416.4160  1008.11  1009.1  880.306  982.494  982.631  17.8678  18.0946  43.8668  44.1808  898.675
   417.6692  847.983  848.751  737.729  823.368  823.482  16.8287  17.0374  41.718  42.0322  754.12
   418.9223  723.575  724.168  627.08  699.875  699.971  15.896  16.0883  39.7837  40.0975  641.873
   420.1754  625.008  625.461  539.515  602.146  602.228  15.0552  15.2329  38.035  38.3481  552.993
   421.4286  545.592  545.932  469.047  523.499  523.57  14.2943  14.4587  36.4479  36.76  481.425
   422.6817  480.666  480.914  411.508  459.281  459.343  13.6031  13.7555  35.0021  35.3131  422.952
   423.9348  426.905  427.078  363.923  406.173  406.227  12.9732  13.1147  33.6806  33.9903  374.566
   425.1880  381.886  381.994  324.126  361.756  361.804  12.3973  12.5289  32.4686  32.777  334.074
   426.4411  343.807  343.861  290.508  324.236  324.279  11.8693  11.9918  31.3539  31.6608  299.847
   427.6942  311.308  311.317  261.855  292.256  292.295  11.3837  11.4979  30.3256  30.631  270.657
   428.9474  283.349  283.319  237.236  264.779  264.814  10.936  11.0427  29.3744  29.6783  245.56
   430.2005  259.118  259.054  215.928  240.998  241.03  10.5223  10.6219  28.4924  28.7947  223.826
   431.4536  237.978  237.885  197.365  220.28  220.309  10.139  10.2322  27.6724  27.9731  204.879
   432.7068  219.425  219.306  181.094  202.121  202.147  9.78314  9.87035  26.9084  27.2075  188.261
   433.9599  203.049  202.908  166.754  186.116  186.14  9.45201  9.5337  26.195  26.4924  173.605
   435.2130  188.523  188.362  154.051  171.938  171.96  9.14328  9.21987  25.5273  25.8231  160.614
   436.4662  175.576  175.398  142.745  159.319  159.34  8.85489  8.92673  24.9012  25.1954  149.044
   437.7193  163.987  163.793  132.638  148.04  148.059  8.58499  8.65242  24.313  24.6056  138.696
   438.9724  153.57  153.362  123.568  137.916  137.934  8.33195  8.39527  23.7594  24.0504  129.402
   440.2256  144.172  143.952  115.396  128.796  128.812  8.09432  8.15382  23.2374  23.5268  121.023
   441.4787  135.663  135.433  108.009  120.551  120.566  7.87081  7.92672  22.7444  23.0322  113.444
   442.7318  127.934  127.694  101.308  113.072  113.087  7.66024  7.71281  22.278  22.5642  106.566
   443.9850  120.892  120.643  95.2121  106.269  106.282  7.46156  7.511  21.8361  22.1207  100.303
   445.2381  114.456  114.2  89.65  100.061  100.074  7.27385  7.32035  21.4168  21.6998  94.5856
   446.4912  108.56  108.296  84.5611  94.381  94.3931  7.09625  7.13999  21.0183  21.2997  89.3512
   447.7444  103.142  102.873  79.8934  89.1713  89.1828  6.92799  6.96915  20.6391  20.919  84.5469
   448.9975  98.1535  97.8784  75.6016  84.3813  84.3922  6.76838  6.8071  20.2778  20.5561  80.1267
   450.0000  94.4409  94.1617  72.4123  80.8216  80.8321  6.64649  6.68336  20.0008  20.2779  76.84

File: raman_spectra2.dat
#Raman spectra
#Laser energy   2.33 eV
#Raman shift (cm-1), Raman Spectra (XX,YY,ZZ,s+s+,s-s-,XY,YX,s+s-,s-s+,nonpol)
   350.0000  127.395  125.321  45.0021  79.7954  80.2034  37.5212  38.0537  83.8903  84.4021  84.8074
   351.2531  134.098  131.939  47.2045  83.7012  84.1286  40.2072  40.7871  89.3457  89.8562  89.0257
   352.5063  141.454  139.202  49.5726  87.9009  88.3492  43.2314  43.8646  95.496  96.0055  93.64
   353.7594  149.554  147.2  52.1233  92.4248  92.8955  46.6524  47.3457  102.462  102.97  98.7007
   355.0125  158.509  156.043  54.8761  97.3071  97.8019  50.5419  51.3034  110.39  110.898  104.267
   356.2657  168.452  165.861  57.8528  102.587  103.107  54.9886  55.8281  119.463  119.972  110.41
   357.5188  179.543  176.815  61.0783  108.308  108.856  60.1033  61.0322  129.91  130.42  117.215
   358.7719  191.983  189.1  64.5812  114.521  115.1  66.0257  67.0581  142.017  142.528  124.784
   360.0251  206.016  202.961  68.3941  121.285  121.896  72.9338  74.0867  156.151  156.665  133.246
   361.2782  221.954  218.705  72.5548  128.666  129.312  81.0576  82.3522  172.787  173.304  142.756
   362.5313  240.194  236.725  77.1069  136.741  137.426  90.6983  92.1608  192.544  193.066  153.513
   363.7845  261.25  257.529  82.101  145.602  146.329  102.256  103.92  216.248  216.777  165.769
   365.0376  285.803  281.791  87.5962  155.353  156.124  116.272  118.179  245.015  245.552  179.853
   366.2907  314.767  310.418  93.6618  166.117  166.938  133.491  135.698  280.385  280.934  196.199
   367.5439  349.407  344.659  100.38  178.04  178.914  154.964  157.544  324.528  325.092  215.397
   368.7970  391.512  386.286  107.847  191.295  192.227  182.208  185.262  380.581  381.165  238.269
   370.0501  443.696  437.888  116.178  206.089  207.082  217.477  221.143  453.211  453.821  265.998
   371.3033  509.916  503.382  125.514  222.671  223.729  264.235  268.713  549.599  550.246  300.343
   372.5564  596.416  588.952  136.021  241.341  242.468  328.022  333.607  681.244  681.944  344.043
   373.8095  713.564  704.866  147.904  262.469  263.666  418.125  425.274  867.459  868.235  401.579
   375.0627  879.643  869.233  161.415  286.514  287.775  551.037  560.492  1142.61  1143.5  480.747
   376.3158  1129.38  1116.44  176.866  314.052  315.36  758.194  771.243  1572.39  1573.46  596.174
   377.5689  1535.07  1518.12  194.651  345.825  347.136  1105.06  1124.12  2294.01  2295.4  777.943
   378.8221  2265.4  2241.35  215.269  382.833  384.036  1743.82  1773.97  3627.84  3629.83  1095.42
   380.0752  3768.62  3730.15  239.378  426.531  427.327  3076.72  3129.99  6424.16  6427.46  1730.96
   381.3283  7313.86  7241.7  267.876  479.339  478.895  6248.92  6357.22  13098.5  13105  3202.36
   382.5815  14160.2  14023.1  301.933  544.334  541.165  12701.4  12921.6  26354.5  26366.4  6161.23
   383.8346  12950.6  12824.4  342.177  615.281  612.738  12306.2  12519.7  24682  24690.8  6040.33
   385.0877  6610.63  6543.66  390.61  696.614  697.503  5966.27  6069.71  11896  11900.2  3249.82
   386.3409  3770.9  3730.03  450.588  800.8  803.657  2961.68  3012.97  5934.37  5936.74  1980.16
   387.5940  2651.12  2619.97  525.733  933.1  937.258  1691.73  1720.99  3405.95  3407.51  1514.53
   388.8471  2210.91  2182.84  621.395  1102.23  1107.58  1078.05  1096.65  2178.75  2179.89  1374.17
   390.1003  2096.88  2068.5  745.652  1322.25  1328.92  742.628  755.403  1505.67  1506.57  1400.11
   391.3534  2190.02  2158.91  911.026  1615.24  1623.56  541.331  550.61  1100.66  1101.41  1545.21
   392.6065  2464.69  2428.47  1137.68  2016.9  2027.42  411.723  418.748  839.332  839.982  1810.05
   393.8596  2951.93  2907.52  1459.68  2587.61  2601.2  323.647  329.137  661.423  661.996  2229.66
   395.1128  3745.25  3688.03  1938.12  3435.64  3453.77  261.223  265.619  535.103  535.61  2884.02
   396.3659  5046.71  4968.82  2690.84  4769.84  4795.07  215.5  219.086  442.379  442.823  3937.18
   397.6190  7296.99  7183.65  3966.84  7031.62  7068.88  181.182  184.143  372.544  372.914  5742.01
   398.8722  11548.9  11368.9  6355.77  11266.1  11325.9  155.092  157.545  319.058  319.321  9138.23
   400.1253  20643.7  20321.1  11444.9  20286.9  20394.6  135.554  137.55  278.161  278.224  16389.4
   401.3784  42569.9  41904  23694.5  42000.2  42223.2  122.558  124.043  248.75  248.363  33858.8
   402.6316  82196.8  80910.4  45823.4  81225  81656.3  115.973  116.828  229.899  228.713  65424.5
   403.8847  68386.2  67315.9  38120.5  67571.1  67929.9  101.964  102.756  203.326  202.402  54429.3
   405.1378  32404.2  31897.2  18039.8  31976.8  32146.6  85.76  86.7402  175.342  175.123  25775.1
   406.3910  16450.7  16193.4  9138.77  16199.1  16285.1  74.7411  75.7383  155.124  155.213  13072
   407.6441  9590.81  9440.84  5313.35  9418.3  9468.29  66.5969  67.5425  139.488  139.705  7611.03
   408.8972  6206.01  6109  3427.27  6075.11  6107.35  60.0661  60.9429  126.648  126.925  4917.41
   410.1504  4324.94  4257.35  2380.16  4219.03  4241.41  54.6102  55.4173  115.783  116.091  3421.14
   411.4035  3181.27  3131.55  1744.31  3091.94  3108.34  49.9504  50.6919  106.433  106.759  2511.92
   412.6566  2437.07  2398.98  1331.14  2359.57  2372.08  45.9151  46.5968  98.2971  98.632  1920.65
   413.9098  1926.74  1896.62  1048.25  1858.12  1867.97  42.3864  43.014  91.158  91.4982  1515.48
   415.1629  1561.95  1537.52  846.386  1500.3  1508.25  39.2771  39.856  84.8513  85.1943  1226.08
   416.4160  1292.31  1272.08  697.443  1236.29  1242.84  36.5202  37.0552  79.2479  79.5919  1012.34
   417.6692  1087.42  1070.39  584.483  1036.06  1041.55  34.0625  34.558  74.2439  74.588  850.066
   418.9223  928.108  913.558  496.818  880.666  885.329  31.861  32.3208  69.7549  70.0984  723.994
   420.1754  801.777  789.194  427.443  757.692  761.703  29.8806  30.3082  65.711  66.0535  624.115
   421.4286  699.905  688.906  371.613  658.729  662.215  28.0921  28.4904  62.0543  62.3954  543.646
   422.6817  616.551  606.849  326.026  577.922  580.98  26.471  26.8428  58.736  59.0754  477.866
   423.9348  547.475  538.845  288.326  511.095  513.799  24.9969  25.3445  55.7148  56.0524  423.404
   425.1880  489.583  481.852  256.796  455.205  457.613  23.6522  23.9777  52.9556  53.2914  377.802
   426.4411  440.577  433.607  230.162  407.992  410.15  22.4221  22.7273  50.4286  50.7624  339.236
   427.6942  398.721  392.4  207.46  367.752  369.696  21.2937  21.5803  48.1077  48.4396  306.328
   428.9474  362.684  356.922  187.955  333.177  334.938  20.2559  20.5254  45.9709  46.3007  278.02
   430.2005  331.43  326.152  171.074  303.253  304.856  19.2993  19.553  43.9987  44.3265  253.493
   431.4536  304.145  299.29  156.367  277.183  278.648  18.4154  18.6546  42.1742  42.5  232.101
   432.7068  280.181  275.698  143.476  254.333  255.677  17.5969  17.8227  40.4828  40.8066  213.329
   433.9599  259.018  254.862  132.115  234.194  235.431  16.8376  17.0509  38.9115  39.2333  196.766
   435.2130  240.233  236.368  122.05  216.353  217.496  16.1316  16.3334  37.4489  37.7686  182.078
   436.4662  223.481  219.875  113.093  200.475  201.534  15.4741  15.6651  36.0849  36.4027  168.991
   437.7193  208.477  205.104  105.086  186.281  187.265  14.8607  15.0417  34.8107  35.1264  157.28
   438.9724  194.985  191.82  97.8991  173.543  174.459  14.2875  14.4591  33.6182  33.932  146.759
   440.2256  182.806  179.83  91.4251  162.066  162.922  13.7508  13.9137  32.5004  32.8122  137.27
   441.4787  171.776  168.97  85.5722  151.691  152.492  13.2478  13.4025  31.4509  31.7609  128.683
   442.7318  161.751  159.101  80.2636  142.281  143.032  12.7755  12.9225  30.4643  30.7723  120.887
   443.9850  152.614  150.105  75.4339  133.72  134.426  12.3314  12.4713  29.5352  29.8414  113.786
   445.2381  144.262  141.882  71.0271  125.908  126.573  11.9133  12.0465  28.6592  28.9635  107.301
   446.4912  136.607  134.345  66.9954  118.762  119.388  11.5192  11.646  27.8321  28.1346  101.362
   447.7444  129.572  127.419  63.2973  112.206  112.798  11.1472  11.2681  27.0503  27.3509  95.9097
   448.9975  123.091  121.039  59.897  106.179  106.739  10.7957  10.9109  26.3102  26.6091  90.8913
   450.0000  118.268  116.29  57.3702  101.7  102.236  10.5282  10.6392  25.7462  26.0437  87.1589

File: raman_spectra3.dat
#Raman spectra
#Laser energy   2.54 eV
#Raman shift (cm-1), Raman Spectra (XX,YY,ZZ,s+s+,s-s-,XY,YX,s+s-,s-s+,nonpol)
   350.0000  161.148  156.868  42.2488  80.3836  80.9895  67.5883  68.5353  146.053  146.713  85.7622
   351.2531  170.418  165.915  44.3165  84.3187  84.9536  72.6441  73.6728  156.359  157.019  90.4632
   352.5063  180.66  175.911  46.5396  88.55  89.2159  78.3339  79.4544  167.966  168.626  95.6456
   353.7594  192.019  186.999  48.9344  93.1079  93.8072  84.7672  85.9915  181.101  181.761  101.378
   355.0125  204.675  199.355  51.5187  98.0271  98.7622  92.0788  93.4208  196.039  196.701  107.741
   356.2657  218.842  213.188  54.3132  103.347  104.12  100.435  101.911  213.122  213.787  114.836
   357.5188  234.788  228.758  57.3414  109.111  109.926  110.043  111.674  232.778  233.447  122.782
   358.7719  252.841  246.389  60.6299  115.372  116.232  121.165  122.975  255.546  256.22  131.729
   360.0251  273.415  266.486  64.2095  122.187  123.096  134.135  136.153  282.113  282.793  141.864
   361.2782  297.038  289.564  68.1157  129.625  130.586  149.384  151.647  313.366  314.055  153.422
   362.5313  324.39  316.288  72.3892  137.763  138.782  167.477  170.03  350.47  351.17  166.704
   363.7845  356.361  347.532  77.0777  146.693  147.773  189.164  192.064  394.97  395.685  182.104
   365.0376  394.142  384.459  82.2366  156.52  157.668  215.458  218.78  448.959  449.693  200.14
   366.2907  439.35  428.655  87.931  167.37  168.591  247.759  251.599  515.322  516.08  221.516
   367.5439  494.241  482.328  94.2378  179.389  180.689  288.035  292.52  598.128  598.918  247.201
   368.7970  562.036  548.633  101.248  192.752  194.138  339.129  344.433  703.254  704.087  278.573
   370.0501  647.483  632.22  109.07  207.67  209.148  405.269  411.631  839.448  840.338  317.646
   371.3033  757.824  740.182  117.833  224.392  225.969  492.948  500.715  1020.17  1021.14  367.469
   372.5564  904.568  883.797  127.697  243.227  244.907  612.553  622.235  1266.97  1268.05  432.856
   373.8095  1106.94  1081.9  138.853  264.551  266.335  781.495  793.883  1616.04  1617.29  521.788
   375.0627  1399.01  1367.87  151.536  288.833  290.715  1030.7  1047.08  2131.8  2133.31  648.306
   376.3158  1845.76  1805.37  166.041  316.67  318.625  1419.09  1441.69  2937.34  2939.27  838.976
   377.5689  2582.85  2527.34  182.734  348.842  350.806  2069.4  2102.42  4289.84  4292.52  1148.82
   378.8221  3927.48  3844.61  202.086  386.43  388.242  3266.98  3319.17  6789.69  6793.87  1705.3
   380.0752  6723.59  6584.13  224.71  431.1  432.328  5765.92  5858.13  12030.4  12038  2844.46
   381.3283  13362.1  13088.8  251.439  485.858  485.289  11713.2  11900.6  24538.7  24554.9  5521.92
   382.5815  26214.5  25682.4  283.362  554.473  549.948  23810.3  24191.5  49383.9  49410.5  10940.2
   383.8346  23871.8  23386  321.148  625.621  622.023  23069.4  23438.9  46255.9  46262.5  10657.6
   385.0877  11845.5  11600.4  366.667  704.467  705.876  11183.3  11362.3  22289.7  22291.5  5429.38
   386.3409  6399.16  6262.53  423  807.958  812.247  5550.31  5639.09  11114.6  11116.3  2994.87
   387.5940  4171.39  4078.22  493.558  940.594  946.799  3169.44  3220.06  6375.11  6376.61  2023.97
   388.8471  3192.65  3117.47  583.372  1110.64  1118.6  2018.93  2051.1  4074.83  4076.09  1624.04
   390.1003  2784.23  2715.1  700.031  1332.07  1342  1390.09  1412.18  2813.23  2814.3  1489.42
   391.3534  2702.3  2631.93  855.289  1627.06  1639.44  1012.72  1028.75  2054.13  2055.07  1514.59
   392.6065  2867.13  2789.51  1068.08  2031.53  2047.17  769.751  781.863  1564.36  1565.18  1671.03
   393.8596  3284.14  3192.53  1370.38  2606.29  2626.49  604.65  614.085  1230.94  1231.68  1973.36
   395.1128  4034.48  3919.47  1819.56  3460.35  3487.3  487.645  495.158  994.226  994.887  2479.63
   396.3659  5315.54  5161.69  2526.22  4804.08  4841.59  401.959  408.023  820.481  821.065  3319.89
   397.6190  7570.17  7348.8  3724.17  7082.03  7137.42  337.671  342.576  689.638  690.131  4780.32
   398.8722  11864.7  11515.5  5966.95  11346.8  11435.7  288.84  292.721  589.437  589.796  7546.34
   400.1253  21082.8  20459.8  10744.7  20432.1  20592.2  252.372  255.152  512.828  512.942  13468.8
   401.3784  43336.9  42053.4  22245  42300.8  42632.3  228.378  229.53  457.738  457.297  27752.9
   402.6316  83571.2  81094  43020.1  81806.3  82447.5  216.692  215.409  422.427  421.004  53570.9
   403.8847  69534.3  67473.2  35788.4  68054.7  68588.1  190.217  189.293  372.683  371.581  44570.2
   405.1378  32981  32004  16936.2  32205.7  32458.1  159.264  159.885  320.313  320.073  21123.3
   406.3910  16770.7  16274.5  8579.71  16315.1  16442.9  138.359  139.55  282.481  282.618  10726.9
   407.6441  9797.38  9507.83  4988.3  9485.73  9560.04  122.991  124.325  253.23  253.523  6256
   408.8972  6354.37  6166.83  3217.61  6118.61  6166.53  110.705  112.034  229.217  229.583  4049.56
   410.1504  4439.31  4308.48  2234.55  4249.25  4282.52  100.458  101.73  208.905  209.308  2823.06
   411.4035  3273.77  3177.44  1637.6  3114.09  3138.47  91.7152  92.9129  191.431  191.854  2077.15
   412.6566  2514.45  2440.57  1249.71  2376.47  2395.07  84.1501  85.2692  176.231  176.665  1591.62
   413.9098  1993.06  1934.58  984.124  1871.44  1886.08  77.5384  78.5809  162.9  163.339  1258.55
   415.1629  1619.85  1572.38  794.608  1511.06  1522.88  71.7152  72.6855  151.128  151.57  1020.38
   416.4160  1343.57  1304.25  654.777  1245.15  1254.89  66.5541  67.4574  140.673  141.116  844.26
   417.6692  1133.32  1100.19  548.727  1043.49  1051.65  61.9549  62.7965  131.342  131.785  710.381
   418.9223  969.571  941.259  466.425  886.982  893.914  57.8367  58.6218  122.976  123.417  606.235
   420.1754  839.516  815.027  401.294  763.127  769.09  54.1334  54.8668  115.443  115.882  523.617
   421.4286  734.471  713.065  348.88  663.456  668.638  50.7901  51.4762  108.636  109.073  456.966
   422.6817  648.38  629.499  306.082  582.07  586.615  47.761  48.4038  102.462  102.897  402.408
   423.9348  576.919  560.131  270.688  514.764  518.783  45.0075  45.6105  96.8449  97.2771  357.177
   425.1880  516.932  501.899  241.087  458.473  462.052  42.4968  43.0633  91.7186  92.1481  319.254
   426.4411  466.071  452.525  216.081  410.922  414.129  40.2008  40.7338  87.0268  87.4536  287.139
   427.6942  422.562  410.287  194.769  370.393  373.283  38.0956  38.5977  82.7213  83.1453  259.7
   428.9474  385.043  373.862  176.457  335.57  338.188  36.1604  36.6339  78.7601  79.1813  236.066
   430.2005  352.454  342.223  160.608  305.432  307.814  34.3771  34.8244  75.1072  75.5256  215.562
   431.4536  323.961  314.559  146.801  279.175  281.352  32.7302  33.1531  71.7308  72.1464  197.656
   432.7068  298.899  290.226  134.699  256.161  258.158  31.2061  31.6063  68.6034  69.0163  181.925
   433.9599  276.734  268.706  124.032  235.877  237.715  29.7925  30.1718  65.7007  66.1109  168.028
   435.2130  257.032  249.575  114.584  217.908  219.607  28.4792  28.8389  63.0014  63.4089  155.689
   436.4662  239.438  232.491  106.174  201.916  203.489  27.2566  27.5981  60.4866  60.8914  144.682
   437.7193  223.658  217.169  98.6568  187.621  189.082  26.1165  26.4411  58.1396  58.5417  134.822
   438.9724  209.449  203.372  91.9101  174.791  176.152  25.0517  25.3604  55.9455  56.345  125.952
   440.2256  196.607  190.902  85.832  163.232  164.503  24.0555  24.3494  53.891  54.2879  117.945
   441.4787  184.961  179.593  80.3372  152.783  153.972  23.1221  23.4022  51.9644  52.3588  110.691
   442.7318  174.365  169.303  75.3534  143.305  144.421  22.2464  22.5134  50.155  50.5468  104.098
   443.9850  164.695  159.912  70.8191  134.682  135.731  21.4235  21.6783  48.4533  48.8426  98.0874
   445.2381  155.845  151.317  66.6819  126.815  127.801  20.6493  20.8926  46.8506  47.2375  92.5923
   446.4912  147.724  143.431  62.8968  119.616  120.547  19.9199  20.1524  45.3394  45.7239  87.5549
   447.7444  140.253  136.175  59.425  113.014  113.893  19.232  19.4543  43.9126  44.2946  82.9255
   448.9975  133.364  129.484  56.2327  106.943  107.775  18.5823  18.795  42.5638  42.9434  78.661
   450.0000  128.231  124.499  53.8605  102.432  103.229  18.0882  18.2936  41.537  41.9149  75.4865